trials.thisRepN	trials.thisTrialN	trials.thisN	trials.thisIndex	num_distr	fixation.started	target.started	mouse.started	mouse.x	mouse.y	mouse.leftButton	mouse.midButton	mouse.rightButton	mouse.clicked_name	participant	session	date	expName	psychopyVersion	frameRate
1	0	1	0	5	71.2629382	71.2629382	0.036947	-0.105555556	0.102777778	1	0	0		200	1	2023-09-29_09h55.18.421	tutorial 3	2023.1.3	60.29806542
2	0	2	0	5	71.9944503	71.9944503	0.0196419	-0.105555556	0.102777778	1	0	0		200	1	2023-09-29_09h55.18.421	tutorial 3	2023.1.3	60.29806542
7	0	7	0	5	75.8855244	75.8855244	0.0227407	-0.105555556	0.102777778	1	0	0		200	1	2023-09-29_09h55.18.421	tutorial 3	2023.1.3	60.29806542
11	0	11	0	5	78.875519	78.875519	0.0267405	-0.105555556	0.102777778	1	0	0		200	1	2023-09-29_09h55.18.421	tutorial 3	2023.1.3	60.29806542
12	0	12	0	5	79.5102145	79.5102145	0.0196583	-0.105555556	0.102777778	1	0	0		200	1	2023-09-29_09h55.18.421	tutorial 3	2023.1.3	60.29806542
16	0	16	0	5	82.0525237	82.0525237	0.0299104	-0.105555556	0.102777778	1	0	0		200	1	2023-09-29_09h55.18.421	tutorial 3	2023.1.3	60.29806542
17	0	17	0	5	82.5826313	82.5826313	0.038077	-0.105555556	0.102777778	1	0	0		200	1	2023-09-29_09h55.18.421	tutorial 3	2023.1.3	60.29806542
20	0	20	0	5	84.4435697	84.4435697	0.0280343	-0.105555556	0.102777778	1	0	0		200	1	2023-09-29_09h55.18.421	tutorial 3	2023.1.3	60.29806542
23	0	23	0	5	87.7180113	87.7180113	0.0343383	-0.051851852	-0.364814815	1	0	0		200	1	2023-09-29_09h55.18.421	tutorial 3	2023.1.3	60.29806542
29	0	29	0	5	96.5291122	96.5291122	0.0299947	0.119444444	0.119444444	1	0	0	target	200	1	2023-09-29_09h55.18.421	tutorial 3	2023.1.3	60.29806542
30	0	30	0	5	97.9072221	97.9072221	0.0371352	-0.389814815	0.423148148	1	0	0	target	200	1	2023-09-29_09h55.18.421	tutorial 3	2023.1.3	60.29806542
31	0	31	0	5	103.3418162	103.3418162	0.028011	0.288888889	0.232407407	1	0	0	target	200	1	2023-09-29_09h55.18.421	tutorial 3	2023.1.3	60.29806542
35	0	35	0	5	109.6925588	109.6925588	0.0393077	0.198148148	-0.273148148	1	0	0	target	200	1	2023-09-29_09h55.18.421	tutorial 3	2023.1.3	60.29806542
38	0	38	0	5	114.4613765	114.4613765	0.0374896	0.031481481	-0.068518519	1	0	0	target	200	1	2023-09-29_09h55.18.421	tutorial 3	2023.1.3	60.29806542
41	0	41	0	5	119.7489623	119.7489623	0.0319653	-0.444444444	0.291666667	1	0	0		200	1	2023-09-29_09h55.18.421	tutorial 3	2023.1.3	60.29806542
45	0	45	0	5	128.0589773	128.0589773	0.0314804	-0.156481481	-0.358333333	1	0	0		200	1	2023-09-29_09h55.18.421	tutorial 3	2023.1.3	60.29806542
46	0	46	0	5	129.5534289	129.5534289	0.030581	-0.15462963	-0.107407407	1	0	0		200	1	2023-09-29_09h55.18.421	tutorial 3	2023.1.3	60.29806542
49	0	49	0	5	132.7648439	132.7648439	0.0346124	-0.42037037	0.458333333	1	0	0		200	1	2023-09-29_09h55.18.421	tutorial 3	2023.1.3	60.29806542
51	0	51	0	5	135.4372231	135.4372231	0.0367361	-0.12037037	0.062962963	1	0	0	target	200	1	2023-09-29_09h55.18.421	tutorial 3	2023.1.3	60.29806542
54	0	54	0	5	139.6284341	139.6284341	0.0180446	-0.308333333	-0.419444444	1	0	0	target	200	1	2023-09-29_09h55.18.421	tutorial 3	2023.1.3	60.29806542
56	0	56	0	5	142.1858745	142.1858745	0.0173883	-0.425925926	-0.165740741	1	0	0		200	1	2023-09-29_09h55.18.421	tutorial 3	2023.1.3	60.29806542
57	0	57	0	5	143.2159749	143.2159749	0.0358206	0.211111111	0.349074074	1	0	0	target	200	1	2023-09-29_09h55.18.421	tutorial 3	2023.1.3	60.29806542
59	0	59	0	5	146.7229068	146.7229068	0.0281268	0.049074074	0.147222222	1	0	0		200	1	2023-09-29_09h55.18.421	tutorial 3	2023.1.3	60.29806542
60	0	60	0	5	147.5373755	147.5373755	0.0199821	0.050925926	0.147222222	1	0	0		200	1	2023-09-29_09h55.18.421	tutorial 3	2023.1.3	60.29806542
61	0	61	0	5	148.155259	148.155259	0.0186962	0.050925926	0.147222222	1	0	0		200	1	2023-09-29_09h55.18.421	tutorial 3	2023.1.3	60.29806542
62	0	62	0	5	148.7210563	148.7210563	0.0195763	0.050925926	0.147222222	1	0	0		200	1	2023-09-29_09h55.18.421	tutorial 3	2023.1.3	60.29806542
68	0	68	0	5	151.8422321	151.8422321	0.0157217	0.050925926	0.147222222	1	0	0		200	1	2023-09-29_09h55.18.421	tutorial 3	2023.1.3	60.29806542
72	0	72	0	5	153.886689	153.886689	0.0357045	0.050925926	0.147222222	1	0	0		200	1	2023-09-29_09h55.18.421	tutorial 3	2023.1.3	60.29806542
74	0	74	0	5	154.9172026	154.9172026	0.0345155	0.050925926	0.147222222	1	0	0		200	1	2023-09-29_09h55.18.421	tutorial 3	2023.1.3	60.29806542
75	0	75	0	5	155.4989969	155.4989969	0.0197743	0.050925926	0.147222222	1	0	0		200	1	2023-09-29_09h55.18.421	tutorial 3	2023.1.3	60.29806542
76	0	76	0	5	156.0973732	156.0973732	0.0203249	0.050925926	0.147222222	1	0	0		200	1	2023-09-29_09h55.18.421	tutorial 3	2023.1.3	60.29806542
79	0	79	0	5	157.825906	157.825906	0.0259675	0.050925926	0.147222222	1	0	0		200	1	2023-09-29_09h55.18.421	tutorial 3	2023.1.3	60.29806542
80	0	80	0	5	158.3744275	158.3744275	0.0194852	0.050925926	0.147222222	1	0	0		200	1	2023-09-29_09h55.18.421	tutorial 3	2023.1.3	60.29806542
88	0	88	0	5	162.5963915	162.5963915	0.0366556	0.050925926	0.147222222	1	0	0		200	1	2023-09-29_09h55.18.421	tutorial 3	2023.1.3	60.29806542
90	0	90	0	5	163.6764414	163.6764414	0.0267074	0.050925926	0.147222222	1	0	0		200	1	2023-09-29_09h55.18.421	tutorial 3	2023.1.3	60.29806542
91	0	91	0	5	164.1918427	164.1918427	0.0210497	0.050925926	0.147222222	1	0	0		200	1	2023-09-29_09h55.18.421	tutorial 3	2023.1.3	60.29806542
93	0	93	0	5	165.2888616	165.2888616	0.0258856	0.050925926	0.147222222	1	0	0		200	1	2023-09-29_09h55.18.421	tutorial 3	2023.1.3	60.29806542
95	0	95	0	5	166.4024584	166.4024584	0.0356787	0.050925926	0.147222222	1	0	0		200	1	2023-09-29_09h55.18.421	tutorial 3	2023.1.3	60.29806542
96	0	96	0	5	167.0868453	167.0868453	0.0319839	0.050925926	0.147222222	1	0	0		200	1	2023-09-29_09h55.18.421	tutorial 3	2023.1.3	60.29806542
97	0	97	0	5	167.7179273	167.7179273	0.0323952	0.050925926	0.147222222	1	0	0		200	1	2023-09-29_09h55.18.421	tutorial 3	2023.1.3	60.29806542
98	0	98	0	5	168.3140992	168.3140992	0.0304596	0.050925926	0.147222222	1	0	0		200	1	2023-09-29_09h55.18.421	tutorial 3	2023.1.3	60.29806542
99	0	99	0	5	168.9122177	168.9122177	0.0363343	0.050925926	0.147222222	1	0	0		200	1	2023-09-29_09h55.18.421	tutorial 3	2023.1.3	60.29806542
101	0	101	0	5	170.175342	170.175342	0.03638	0.050925926	0.147222222	1	0	0		200	1	2023-09-29_09h55.18.421	tutorial 3	2023.1.3	60.29806542
102	0	102	0	5	170.7407518	170.7407518	0.0191375	0.050925926	0.147222222	1	0	0		200	1	2023-09-29_09h55.18.421	tutorial 3	2023.1.3	60.29806542
103	0	103	0	5	171.2724259	171.2724259	0.0191217	0.050925926	0.147222222	1	0	0		200	1	2023-09-29_09h55.18.421	tutorial 3	2023.1.3	60.29806542
104	0	104	0	5	171.822271	171.822271	0.0186017	0.050925926	0.147222222	1	0	0		200	1	2023-09-29_09h55.18.421	tutorial 3	2023.1.3	60.29806542
105	0	105	0	5	172.3863814	172.3863814	0.0268295	0.050925926	0.147222222	1	0	0		200	1	2023-09-29_09h55.18.421	tutorial 3	2023.1.3	60.29806542
107	0	107	0	5	173.549452	173.549452	0.0263713	0.050925926	0.147222222	1	0	0		200	1	2023-09-29_09h55.18.421	tutorial 3	2023.1.3	60.29806542
108	0	108	0	5	174.0314147	174.0314147	0.0201332	0.050925926	0.147222222	1	0	0		200	1	2023-09-29_09h55.18.421	tutorial 3	2023.1.3	60.29806542
111	0	111	0	5	175.6270451	175.6270451	0.0261727	0.050925926	0.147222222	1	0	0		200	1	2023-09-29_09h55.18.421	tutorial 3	2023.1.3	60.29806542
113	0	113	0	5	176.8422541	176.8422541	0.0162565	0.051851852	0.146296296	1	0	0		200	1	2023-09-29_09h55.18.421	tutorial 3	2023.1.3	60.29806542
115	0	115	0	5	177.737941	177.737941	0.0257693	0.051851852	0.146296296	1	0	0		200	1	2023-09-29_09h55.18.421	tutorial 3	2023.1.3	60.29806542
116	0	116	0	5	178.1701969	178.1701969	0.0200476	0.051851852	0.146296296	1	0	0		200	1	2023-09-29_09h55.18.421	tutorial 3	2023.1.3	60.29806542
117	0	117	0	5	178.801784	178.801784	0.0194859	0.051851852	0.146296296	1	0	0		200	1	2023-09-29_09h55.18.421	tutorial 3	2023.1.3	60.29806542
118	0	118	0	5	179.5331161	179.5331161	0.0188281	0.051851852	0.146296296	1	0	0		200	1	2023-09-29_09h55.18.421	tutorial 3	2023.1.3	60.29806542
120	0	120	0	5	180.6302368	180.6302368	0.0337546	0.051851852	0.146296296	1	0	0		200	1	2023-09-29_09h55.18.421	tutorial 3	2023.1.3	60.29806542
122	0	122	0	5	181.6940751	181.6940751	0.0371151	0.051851852	0.146296296	1	0	0		200	1	2023-09-29_09h55.18.421	tutorial 3	2023.1.3	60.29806542
124	0	124	0	5	182.8406342	182.8406342	0.0278181	0.051851852	0.144444444	1	0	0		200	1	2023-09-29_09h55.18.421	tutorial 3	2023.1.3	60.29806542
126	0	126	0	5	183.9546657	183.9546657	0.0373744	0.052777778	0.141666667	1	0	0		200	1	2023-09-29_09h55.18.421	tutorial 3	2023.1.3	60.29806542
127	0	127	0	5	184.486096	184.486096	0.0374917	0.052777778	0.141666667	1	0	0		200	1	2023-09-29_09h55.18.421	tutorial 3	2023.1.3	60.29806542
128	0	128	0	5	184.9681244	184.9681244	0.022492	0.056481481	0.136111111	1	0	0		200	1	2023-09-29_09h55.18.421	tutorial 3	2023.1.3	60.29806542
131	0	131	0	5	189.8713701	189.8713701	0.0262013	0.062962963	0.126851852	1	0	0		200	1	2023-09-29_09h55.18.421	tutorial 3	2023.1.3	60.29806542
132	0	132	0	5	190.4365153	190.4365153	0.0226042	0.062962963	0.126851852	1	0	0		200	1	2023-09-29_09h55.18.421	tutorial 3	2023.1.3	60.29806542
133	0	133	0	5	191.054413	191.054413	0.0194185	0.062962963	0.126851852	1	0	0		200	1	2023-09-29_09h55.18.421	tutorial 3	2023.1.3	60.29806542
136	0	136	0	5	192.7634626	192.7634626	0.0157548	0.062962963	0.126851852	1	0	0		200	1	2023-09-29_09h55.18.421	tutorial 3	2023.1.3	60.29806542
137	0	137	0	5	193.5148161	193.5148161	0.0197711	0.062962963	0.126851852	1	0	0		200	1	2023-09-29_09h55.18.421	tutorial 3	2023.1.3	60.29806542
139	0	139	0	5	194.6273699	194.6273699	0.0157125	0.062962963	0.126851852	1	0	0		200	1	2023-09-29_09h55.18.421	tutorial 3	2023.1.3	60.29806542
140	0	140	0	5	195.2733457	195.2733457	0.0180437	0.062962963	0.126851852	1	0	0		200	1	2023-09-29_09h55.18.421	tutorial 3	2023.1.3	60.29806542
141	0	141	0	5	195.8249902	195.8249902	0.0199407	0.062962963	0.126851852	1	0	0		200	1	2023-09-29_09h55.18.421	tutorial 3	2023.1.3	60.29806542
146	0	146	0	5	198.8467293	198.8467293	0.0167771	0.062962963	0.126851852	1	0	0		200	1	2023-09-29_09h55.18.421	tutorial 3	2023.1.3	60.29806542
150	0	150	0	5	201.1084677	201.1084677	0.0312333	0.062962963	0.126851852	1	0	0		200	1	2023-09-29_09h55.18.421	tutorial 3	2023.1.3	60.29806542
154	0	154	0	5	204.017987	204.017987	0.0317115	0.061111111	0.126851852	1	0	0		200	1	2023-09-29_09h55.18.421	tutorial 3	2023.1.3	60.29806542
155	0	155	0	5	204.5478913	204.5478913	0.0206157	0.061111111	0.126851852	1	0	0		200	1	2023-09-29_09h55.18.421	tutorial 3	2023.1.3	60.29806542
156	0	156	0	5	205.1655068	205.1655068	0.0188661	0.061111111	0.126851852	1	0	0		200	1	2023-09-29_09h55.18.421	tutorial 3	2023.1.3	60.29806542
158	0	158	0	5	206.6093241	206.6093241	0.0280107	0.061111111	0.126851852	1	0	0		200	1	2023-09-29_09h55.18.421	tutorial 3	2023.1.3	60.29806542
159	0	159	0	5	207.1739856	207.1739856	0.0278586	0.061111111	0.126851852	1	0	0		200	1	2023-09-29_09h55.18.421	tutorial 3	2023.1.3	60.29806542
161	0	161	0	5	208.3706775	208.3706775	0.025935	0.061111111	0.126851852	1	0	0		200	1	2023-09-29_09h55.18.421	tutorial 3	2023.1.3	60.29806542
162	0	162	0	5	209.0691177	209.0691177	0.0342007	0.061111111	0.126851852	1	0	0		200	1	2023-09-29_09h55.18.421	tutorial 3	2023.1.3	60.29806542
168	0	168	0	5	213.4735403	213.4735403	0.0359474	0.061111111	0.125925926	1	0	0		200	1	2023-09-29_09h55.18.421	tutorial 3	2023.1.3	60.29806542
170	0	170	0	5	214.6368558	214.6368558	0.0267164	0.061111111	0.125925926	1	0	0		200	1	2023-09-29_09h55.18.421	tutorial 3	2023.1.3	60.29806542
173	0	173	0	5	216.4153954	216.4153954	0.0358461	0.061111111	0.125925926	1	0	0		200	1	2023-09-29_09h55.18.421	tutorial 3	2023.1.3	60.29806542
175	0	175	0	5	217.5969073	217.5969073	0.017808	0.061111111	0.125925926	1	0	0		200	1	2023-09-29_09h55.18.421	tutorial 3	2023.1.3	60.29806542
179	0	179	0	5	219.8558648	219.8558648	0.0367157	0.061111111	0.125925926	1	0	0		200	1	2023-09-29_09h55.18.421	tutorial 3	2023.1.3	60.29806542
182	0	182	0	5	221.6010597	221.6010597	0.0293175	0.063888889	0.125925926	1	0	0		200	1	2023-09-29_09h55.18.421	tutorial 3	2023.1.3	60.29806542
185	0	185	0	5	223.4628612	223.4628612	0.0295921	0.063888889	0.125925926	1	0	0		200	1	2023-09-29_09h55.18.421	tutorial 3	2023.1.3	60.29806542
186	0	186	0	5	224.0114009	224.0114009	0.0195621	0.063888889	0.125925926	1	0	0		200	1	2023-09-29_09h55.18.421	tutorial 3	2023.1.3	60.29806542
187	0	187	0	5	224.5430849	224.5430849	0.0230905	0.063888889	0.125925926	1	0	0		200	1	2023-09-29_09h55.18.421	tutorial 3	2023.1.3	60.29806542
189	0	189	0	5	225.5748641	225.5748641	0.0155568	0.063888889	0.125925926	0	0	1		200	1	2023-09-29_09h55.18.421	tutorial 3	2023.1.3	60.29806542
191	0	191	0	5	226.753619	226.753619	0.0359084	0.063888889	0.125925926	0	0	1		200	1	2023-09-29_09h55.18.421	tutorial 3	2023.1.3	60.29806542
193	0	193	0	5	227.9006083	227.9006083	0.0358152	0.063888889	0.125925926	0	0	1		200	1	2023-09-29_09h55.18.421	tutorial 3	2023.1.3	60.29806542
196	0	196	0	5	229.6125236	229.6125236	0.035496	0.063888889	0.125925926	0	0	1		200	1	2023-09-29_09h55.18.421	tutorial 3	2023.1.3	60.29806542
199	0	199	0	5	231.3080028	231.3080028	0.0300491	0.063888889	0.125925926	0	0	1		200	1	2023-09-29_09h55.18.421	tutorial 3	2023.1.3	60.29806542
				5															
0	0	0	0	10	67.9226845	67.9226845	0.0506539	-0.10462963	0.098148148	1	0	0		200	1	2023-09-29_09h55.18.421	tutorial 3	2023.1.3	60.29806542
3	0	3	0	10	72.844001	72.844001	0.0457464	-0.105555556	0.102777778	1	0	0		200	1	2023-09-29_09h55.18.421	tutorial 3	2023.1.3	60.29806542
4	0	4	0	10	73.6897645	73.6897645	0.0513376	-0.105555556	0.102777778	1	0	0		200	1	2023-09-29_09h55.18.421	tutorial 3	2023.1.3	60.29806542
5	0	5	0	10	74.537216	74.537216	0.030111	-0.105555556	0.102777778	1	0	0		200	1	2023-09-29_09h55.18.421	tutorial 3	2023.1.3	60.29806542
6	0	6	0	10	75.2687991	75.2687991	0.0578886	-0.105555556	0.102777778	1	0	0		200	1	2023-09-29_09h55.18.421	tutorial 3	2023.1.3	60.29806542
8	0	8	0	10	76.6483922	76.6483922	0.0584457	-0.105555556	0.102777778	1	0	0		200	1	2023-09-29_09h55.18.421	tutorial 3	2023.1.3	60.29806542
9	0	9	0	10	77.4295137	77.4295137	0.0572522	-0.105555556	0.102777778	1	0	0		200	1	2023-09-29_09h55.18.421	tutorial 3	2023.1.3	60.29806542
10	0	10	0	10	78.1464334	78.1464334	0.0312273	-0.105555556	0.102777778	1	0	0		200	1	2023-09-29_09h55.18.421	tutorial 3	2023.1.3	60.29806542
13	0	13	0	10	80.1554597	80.1554597	0.0340387	-0.105555556	0.102777778	1	0	0		200	1	2023-09-29_09h55.18.421	tutorial 3	2023.1.3	60.29806542
14	0	14	0	10	80.7869608	80.7869608	0.0401664	-0.105555556	0.102777778	1	0	0		200	1	2023-09-29_09h55.18.421	tutorial 3	2023.1.3	60.29806542
15	0	15	0	10	81.4353611	81.4353611	0.0578278	-0.105555556	0.102777778	1	0	0		200	1	2023-09-29_09h55.18.421	tutorial 3	2023.1.3	60.29806542
18	0	18	0	10	83.2139946	83.2139946	0.0534599	-0.105555556	0.102777778	1	0	0		200	1	2023-09-29_09h55.18.421	tutorial 3	2023.1.3	60.29806542
19	0	19	0	10	83.8621	83.8621	0.0495797	-0.105555556	0.102777778	1	0	0		200	1	2023-09-29_09h55.18.421	tutorial 3	2023.1.3	60.29806542
21	0	21	0	10	85.1084905	85.1084905	0.038014	-0.105555556	0.102777778	1	0	0		200	1	2023-09-29_09h55.18.421	tutorial 3	2023.1.3	60.29806542
22	0	22	0	10	85.706803	85.706803	0.0293871	-0.199074074	-0.343518519	1	0	0	target	200	1	2023-09-29_09h55.18.421	tutorial 3	2023.1.3	60.29806542
24	0	24	0	10	88.94791	88.94791	0.0585045	-0.247222222	-0.24537037	1	0	0	target	200	1	2023-09-29_09h55.18.421	tutorial 3	2023.1.3	60.29806542
25	0	25	0	10	90.0282789	90.0282789	0.0563508	0.455555556	-0.115740741	1	0	0	target	200	1	2023-09-29_09h55.18.421	tutorial 3	2023.1.3	60.29806542
26	0	26	0	10	91.7569616	91.7569616	0.0480415	0.026851852	0.427777778	1	0	0	target	200	1	2023-09-29_09h55.18.421	tutorial 3	2023.1.3	60.29806542
27	0	27	0	10	93.4190178	93.4190178	0.0570363	0.237037037	-0.385185185	1	0	0	target	200	1	2023-09-29_09h55.18.421	tutorial 3	2023.1.3	60.29806542
28	0	28	0	10	95.064688	95.064688	0.0305178	0.215740741	-0.037037037	1	0	0	target	200	1	2023-09-29_09h55.18.421	tutorial 3	2023.1.3	60.29806542
32	0	32	0	10	104.7712219	104.7712219	0.0493214	-0.127777778	-0.492592593	1	0	0	target	200	1	2023-09-29_09h55.18.421	tutorial 3	2023.1.3	60.29806542
33	0	33	0	10	107.1148495	107.1148495	0.0483164	0.185185185	-0.138888889	1	0	0		200	1	2023-09-29_09h55.18.421	tutorial 3	2023.1.3	60.29806542
34	0	34	0	10	108.2130946	108.2130946	0.0457414	-0.40462963	0.208333333	1	0	0		200	1	2023-09-29_09h55.18.421	tutorial 3	2023.1.3	60.29806542
36	0	36	0	10	111.2375235	111.2375235	0.0597303	-0.237962963	0.355555556	1	0	0	target	200	1	2023-09-29_09h55.18.421	tutorial 3	2023.1.3	60.29806542
37	0	37	0	10	112.8990926	112.8990926	0.0408246	0.398148148	0.22037037	1	0	0	target	200	1	2023-09-29_09h55.18.421	tutorial 3	2023.1.3	60.29806542
39	0	39	0	10	115.9906183	115.9906183	0.0410691	0.200925926	0.282407407	1	0	0	target	200	1	2023-09-29_09h55.18.421	tutorial 3	2023.1.3	60.29806542
40	0	40	0	10	117.9356705	117.9356705	0.0431484	-0.027777778	0.310185185	1	0	0		200	1	2023-09-29_09h55.18.421	tutorial 3	2023.1.3	60.29806542
42	0	42	0	10	122.2239815	122.2239815	0.0716834	0.462962963	0.375	1	0	0	target	200	1	2023-09-29_09h55.18.421	tutorial 3	2023.1.3	60.29806542
43	0	43	0	10	124.2678268	124.2678268	0.051566	-0.225	-0.460185185	1	0	0	target	200	1	2023-09-29_09h55.18.421	tutorial 3	2023.1.3	60.29806542
44	0	44	0	10	126.2457488	126.2457488	0.0523797	-0.265740741	0.138888889	1	0	0		200	1	2023-09-29_09h55.18.421	tutorial 3	2023.1.3	60.29806542
47	0	47	0	10	130.4512415	130.4512415	0.0622919	-0.407407407	-0.150925926	1	0	0	target	200	1	2023-09-29_09h55.18.421	tutorial 3	2023.1.3	60.29806542
48	0	48	0	10	131.764647	131.764647	0.0437743	-0.105555556	0.232407407	1	0	0		200	1	2023-09-29_09h55.18.421	tutorial 3	2023.1.3	60.29806542
50	0	50	0	10	134.1447673	134.1447673	0.0493043	0.448148148	0.357407407	1	0	0		200	1	2023-09-29_09h55.18.421	tutorial 3	2023.1.3	60.29806542
52	0	52	0	10	137.1326006	137.1326006	0.0328116	0.089814815	-0.051851852	1	0	0		200	1	2023-09-29_09h55.18.421	tutorial 3	2023.1.3	60.29806542
53	0	53	0	10	138.3292485	138.3292485	0.0569249	-0.169444444	-0.441666667	1	0	0	target	200	1	2023-09-29_09h55.18.421	tutorial 3	2023.1.3	60.29806542
55	0	55	0	10	140.9223081	140.9223081	0.0588813	-0.038888889	0.022222222	1	0	0		200	1	2023-09-29_09h55.18.421	tutorial 3	2023.1.3	60.29806542
58	0	58	0	10	145.5928234	145.5928234	0.0346935	0.25462963	0.380555556	1	0	0		200	1	2023-09-29_09h55.18.421	tutorial 3	2023.1.3	60.29806542
63	0	63	0	10	149.2826313	149.2826313	0.0345794	0.050925926	0.147222222	1	0	0		200	1	2023-09-29_09h55.18.421	tutorial 3	2023.1.3	60.29806542
64	0	64	0	10	149.8477131	149.8477131	0.0398231	0.050925926	0.147222222	1	0	0		200	1	2023-09-29_09h55.18.421	tutorial 3	2023.1.3	60.29806542
65	0	65	0	10	150.4128633	150.4128633	0.0401093	0.050925926	0.147222222	1	0	0		200	1	2023-09-29_09h55.18.421	tutorial 3	2023.1.3	60.29806542
66	0	66	0	10	150.8947916	150.8947916	0.0403064	0.050925926	0.147222222	1	0	0		200	1	2023-09-29_09h55.18.421	tutorial 3	2023.1.3	60.29806542
67	0	67	0	10	151.376939	151.376939	0.0292972	0.050925926	0.147222222	1	0	0		200	1	2023-09-29_09h55.18.421	tutorial 3	2023.1.3	60.29806542
69	0	69	0	10	152.3603121	152.3603121	0.0330291	0.050925926	0.147222222	1	0	0		200	1	2023-09-29_09h55.18.421	tutorial 3	2023.1.3	60.29806542
70	0	70	0	10	152.8571173	152.8571173	0.0436586	0.050925926	0.147222222	1	0	0		200	1	2023-09-29_09h55.18.421	tutorial 3	2023.1.3	60.29806542
71	0	71	0	10	153.3879859	153.3879859	0.057568	0.050925926	0.147222222	1	0	0		200	1	2023-09-29_09h55.18.421	tutorial 3	2023.1.3	60.29806542
73	0	73	0	10	154.4185994	154.4185994	0.0334808	0.050925926	0.147222222	1	0	0		200	1	2023-09-29_09h55.18.421	tutorial 3	2023.1.3	60.29806542
77	0	77	0	10	156.7122719	156.7122719	0.0337695	0.050925926	0.147222222	1	0	0		200	1	2023-09-29_09h55.18.421	tutorial 3	2023.1.3	60.29806542
78	0	78	0	10	157.293956	157.293956	0.029769	0.050925926	0.147222222	1	0	0		200	1	2023-09-29_09h55.18.421	tutorial 3	2023.1.3	60.29806542
81	0	81	0	10	158.9228865	158.9228865	0.0474611	0.050925926	0.147222222	1	0	0		200	1	2023-09-29_09h55.18.421	tutorial 3	2023.1.3	60.29806542
82	0	82	0	10	159.4214329	159.4214329	0.0556633	0.050925926	0.147222222	1	0	0		200	1	2023-09-29_09h55.18.421	tutorial 3	2023.1.3	60.29806542
83	0	83	0	10	159.936849	159.936849	0.0405339	0.050925926	0.147222222	1	0	0		200	1	2023-09-29_09h55.18.421	tutorial 3	2023.1.3	60.29806542
84	0	84	0	10	160.4020784	160.4020784	0.040199	0.050925926	0.147222222	1	0	0		200	1	2023-09-29_09h55.18.421	tutorial 3	2023.1.3	60.29806542
85	0	85	0	10	160.9507146	160.9507146	0.0562434	0.050925926	0.147222222	1	0	0		200	1	2023-09-29_09h55.18.421	tutorial 3	2023.1.3	60.29806542
86	0	86	0	10	161.4491979	161.4491979	0.0295107	0.050925926	0.147222222	1	0	0		200	1	2023-09-29_09h55.18.421	tutorial 3	2023.1.3	60.29806542
87	0	87	0	10	162.0642461	162.0642461	0.0542557	0.050925926	0.147222222	1	0	0		200	1	2023-09-29_09h55.18.421	tutorial 3	2023.1.3	60.29806542
89	0	89	0	10	163.1446292	163.1446292	0.0526046	0.050925926	0.147222222	1	0	0		200	1	2023-09-29_09h55.18.421	tutorial 3	2023.1.3	60.29806542
92	0	92	0	10	164.8069117	164.8069117	0.0562785	0.050925926	0.147222222	1	0	0		200	1	2023-09-29_09h55.18.421	tutorial 3	2023.1.3	60.29806542
94	0	94	0	10	165.8373399	165.8373399	0.0334104	0.050925926	0.147222222	1	0	0		200	1	2023-09-29_09h55.18.421	tutorial 3	2023.1.3	60.29806542
100	0	100	0	10	169.5108441	169.5108441	0.0333911	0.050925926	0.147222222	1	0	0		200	1	2023-09-29_09h55.18.421	tutorial 3	2023.1.3	60.29806542
106	0	106	0	10	172.9538876	172.9538876	0.0434299	0.050925926	0.147222222	1	0	0		200	1	2023-09-29_09h55.18.421	tutorial 3	2023.1.3	60.29806542
109	0	109	0	10	174.6633559	174.6633559	0.0341403	0.050925926	0.147222222	1	0	0		200	1	2023-09-29_09h55.18.421	tutorial 3	2023.1.3	60.29806542
110	0	110	0	10	175.113175	175.113175	0.0457845	0.050925926	0.147222222	1	0	0		200	1	2023-09-29_09h55.18.421	tutorial 3	2023.1.3	60.29806542
112	0	112	0	10	176.3623005	176.3623005	0.0332707	0.051851852	0.146296296	1	0	0		200	1	2023-09-29_09h55.18.421	tutorial 3	2023.1.3	60.29806542
114	0	114	0	10	177.2594963	177.2594963	0.0323031	0.051851852	0.146296296	1	0	0		200	1	2023-09-29_09h55.18.421	tutorial 3	2023.1.3	60.29806542
119	0	119	0	10	180.1314343	180.1314343	0.0328329	0.051851852	0.146296296	1	0	0		200	1	2023-09-29_09h55.18.421	tutorial 3	2023.1.3	60.29806542
121	0	121	0	10	181.1785145	181.1785145	0.0414495	0.051851852	0.146296296	1	0	0		200	1	2023-09-29_09h55.18.421	tutorial 3	2023.1.3	60.29806542
123	0	123	0	10	182.2258859	182.2258859	0.0437127	0.051851852	0.146296296	1	0	0		200	1	2023-09-29_09h55.18.421	tutorial 3	2023.1.3	60.29806542
125	0	125	0	10	183.422365	183.422365	0.0367593	0.051851852	0.144444444	1	0	0		200	1	2023-09-29_09h55.18.421	tutorial 3	2023.1.3	60.29806542
129	0	129	0	10	185.5497444	185.5497444	0.0562672	0.056481481	0.136111111	1	0	0		200	1	2023-09-29_09h55.18.421	tutorial 3	2023.1.3	60.29806542
130	0	130	0	10	186.0348033	186.0348033	0.046023	0.062962963	0.126851852	1	0	0		200	1	2023-09-29_09h55.18.421	tutorial 3	2023.1.3	60.29806542
134	0	134	0	10	191.599961	191.599961	0.0386255	0.062962963	0.126851852	1	0	0		200	1	2023-09-29_09h55.18.421	tutorial 3	2023.1.3	60.29806542
135	0	135	0	10	192.2148798	192.2148798	0.0297787	0.062962963	0.126851852	1	0	0		200	1	2023-09-29_09h55.18.421	tutorial 3	2023.1.3	60.29806542
138	0	138	0	10	194.1430968	194.1430968	0.0493684	0.062962963	0.126851852	1	0	0		200	1	2023-09-29_09h55.18.421	tutorial 3	2023.1.3	60.29806542
142	0	142	0	10	196.5199627	196.5199627	0.0547271	0.062962963	0.126851852	1	0	0		200	1	2023-09-29_09h55.18.421	tutorial 3	2023.1.3	60.29806542
143	0	143	0	10	197.1680648	197.1680648	0.0521749	0.062962963	0.126851852	1	0	0		200	1	2023-09-29_09h55.18.421	tutorial 3	2023.1.3	60.29806542
144	0	144	0	10	197.7829909	197.7829909	0.0295186	0.062962963	0.126851852	1	0	0		200	1	2023-09-29_09h55.18.421	tutorial 3	2023.1.3	60.29806542
145	0	145	0	10	198.3981714	198.3981714	0.052254	0.062962963	0.126851852	1	0	0		200	1	2023-09-29_09h55.18.421	tutorial 3	2023.1.3	60.29806542
147	0	147	0	10	199.5117711	199.5117711	0.0501179	0.062962963	0.126851852	1	0	0		200	1	2023-09-29_09h55.18.421	tutorial 3	2023.1.3	60.29806542
148	0	148	0	10	200.0604124	200.0604124	0.0542212	0.062962963	0.126851852	1	0	0		200	1	2023-09-29_09h55.18.421	tutorial 3	2023.1.3	60.29806542
149	0	149	0	10	200.5920542	200.5920542	0.0402249	0.062962963	0.126851852	1	0	0		200	1	2023-09-29_09h55.18.421	tutorial 3	2023.1.3	60.29806542
151	0	151	0	10	202.1210864	202.1210864	0.0406913	0.062962963	0.126851852	1	0	0		200	1	2023-09-29_09h55.18.421	tutorial 3	2023.1.3	60.29806542
152	0	152	0	10	202.7729496	202.7729496	0.047305	0.061111111	0.126851852	1	0	0		200	1	2023-09-29_09h55.18.421	tutorial 3	2023.1.3	60.29806542
153	0	153	0	10	203.4009774	203.4009774	0.0564931	0.061111111	0.126851852	1	0	0		200	1	2023-09-29_09h55.18.421	tutorial 3	2023.1.3	60.29806542
157	0	157	0	10	205.8646653	205.8646653	0.0328134	0.061111111	0.126851852	1	0	0		200	1	2023-09-29_09h55.18.421	tutorial 3	2023.1.3	60.29806542
160	0	160	0	10	207.8387551	207.8387551	0.0567065	0.061111111	0.126851852	1	0	0		200	1	2023-09-29_09h55.18.421	tutorial 3	2023.1.3	60.29806542
163	0	163	0	10	209.6671054	209.6671054	0.0569137	0.061111111	0.126851852	1	0	0		200	1	2023-09-29_09h55.18.421	tutorial 3	2023.1.3	60.29806542
164	0	164	0	10	210.4815495	210.4815495	0.0557234	0.061111111	0.125925926	1	0	0		200	1	2023-09-29_09h55.18.421	tutorial 3	2023.1.3	60.29806542
165	0	165	0	10	211.146363	211.146363	0.0528012	0.061111111	0.125925926	1	0	0		200	1	2023-09-29_09h55.18.421	tutorial 3	2023.1.3	60.29806542
166	0	166	0	10	212.0939393	212.0939393	0.0407098	0.061111111	0.125925926	1	0	0		200	1	2023-09-29_09h55.18.421	tutorial 3	2023.1.3	60.29806542
167	0	167	0	10	212.9417309	212.9417309	0.071085	0.061111111	0.125925926	1	0	0		200	1	2023-09-29_09h55.18.421	tutorial 3	2023.1.3	60.29806542
169	0	169	0	10	214.0883665	214.0883665	0.0375918	0.061111111	0.125925926	1	0	0		200	1	2023-09-29_09h55.18.421	tutorial 3	2023.1.3	60.29806542
171	0	171	0	10	215.1890347	215.1890347	0.0327126	0.061111111	0.125925926	1	0	0		200	1	2023-09-29_09h55.18.421	tutorial 3	2023.1.3	60.29806542
172	0	172	0	10	215.8336242	215.8336242	0.0382794	0.061111111	0.125925926	1	0	0		200	1	2023-09-29_09h55.18.421	tutorial 3	2023.1.3	60.29806542
174	0	174	0	10	217.0504487	217.0504487	0.0335622	0.061111111	0.125925926	1	0	0		200	1	2023-09-29_09h55.18.421	tutorial 3	2023.1.3	60.29806542
176	0	176	0	10	218.1605783	218.1605783	0.0357577	0.061111111	0.125925926	1	0	0		200	1	2023-09-29_09h55.18.421	tutorial 3	2023.1.3	60.29806542
177	0	177	0	10	218.7421976	218.7421976	0.0520877	0.061111111	0.125925926	1	0	0		200	1	2023-09-29_09h55.18.421	tutorial 3	2023.1.3	60.29806542
178	0	178	0	10	219.3074037	219.3074037	0.0389758	0.061111111	0.125925926	1	0	0		200	1	2023-09-29_09h55.18.421	tutorial 3	2023.1.3	60.29806542
180	0	180	0	10	220.3544097	220.3544097	0.0372679	0.063888889	0.125925926	1	0	0		200	1	2023-09-29_09h55.18.421	tutorial 3	2023.1.3	60.29806542
181	0	181	0	10	221.1053538	221.1053538	0.0464976	0.063888889	0.125925926	1	0	0		200	1	2023-09-29_09h55.18.421	tutorial 3	2023.1.3	60.29806542
183	0	183	0	10	222.1866712	222.1866712	0.0296867	0.063888889	0.125925926	1	0	0		200	1	2023-09-29_09h55.18.421	tutorial 3	2023.1.3	60.29806542
184	0	184	0	10	222.797893	222.797893	0.0399953	0.063888889	0.125925926	1	0	0		200	1	2023-09-29_09h55.18.421	tutorial 3	2023.1.3	60.29806542
188	0	188	0	10	225.0606666	225.0606666	0.032071	0.063888889	0.125925926	0	0	1		200	1	2023-09-29_09h55.18.421	tutorial 3	2023.1.3	60.29806542
190	0	190	0	10	226.2051599	226.2051599	0.0361361	0.063888889	0.125925926	0	0	1		200	1	2023-09-29_09h55.18.421	tutorial 3	2023.1.3	60.29806542
192	0	192	0	10	227.3353695	227.3353695	0.0372884	0.063888889	0.125925926	0	0	1		200	1	2023-09-29_09h55.18.421	tutorial 3	2023.1.3	60.29806542
194	0	194	0	10	228.4822859	228.4822859	0.0542526	0.063888889	0.125925926	0	0	1		200	1	2023-09-29_09h55.18.421	tutorial 3	2023.1.3	60.29806542
195	0	195	0	10	229.0640179	229.0640179	0.0398292	0.063888889	0.125925926	0	0	1		200	1	2023-09-29_09h55.18.421	tutorial 3	2023.1.3	60.29806542
197	0	197	0	10	230.1609835	230.1609835	0.0566415	0.063888889	0.125925926	0	0	1		200	1	2023-09-29_09h55.18.421	tutorial 3	2023.1.3	60.29806542
198	0	198	0	10	230.7101798	230.7101798	0.0448504	0.063888889	0.125925926	0	0	1		200	1	2023-09-29_09h55.18.421	tutorial 3	2023.1.3	60.29806542
